session,block,trial,block_type,stim_id,stim_cond,stim_cond_source,stim_ang,stim_eccen,stim_xpos,stim_ypos,stim_onset,stim_dur,isi,made_resp,key,rt,resp,acc,stim_timestamp
2,2,1.0,recog,ant,old,3.0,-135.0,2.0,-1.4142135623730954,-1.414213562373095,0.0,2.0,5.0,True,1,1.1006953269970836,old,1,0.001986497998586856
2,2,2.0,recog,gluetube,old,3.0,-135.0,2.0,-1.4142135623730954,-1.414213562373095,7.0,2.0,4.0,True,1,1.0265504619892454,old,1,6.986483075990691
2,2,3.0,recog,tomato01,old,1.0,45.0,2.0,1.4142135623730951,1.414213562373095,13.0,2.0,4.0,True,1,0.9635948710056255,old,1,12.98644952000177
2,2,4.0,recog,almond,new,,,2.0,,,19.0,2.0,7.0,True,2,2.1660832019988447,new,1,18.98635001499497
2,2,5.0,recog,phonebooth,old,2.0,135.0,2.0,1.4142135623730951,-1.414213562373095,28.0,2.0,6.0,True,1,0.9564079300034791,old,1,27.986489058996085
2,2,6.0,recog,pig,new,,,2.0,,,36.0,2.0,4.0,True,2,0.732964994997019,new,1,35.986456992992316
2,2,7.0,recog,skunk,old,2.0,135.0,2.0,1.4142135623730951,-1.414213562373095,42.0,2.0,6.0,True,1,0.9296730830101296,old,1,41.985812829996576
2,2,8.0,recog,castle,new,,,2.0,,,50.0,2.0,4.0,True,2,1.0610398470016662,new,1,49.986375038002734
2,2,9.0,recog,smokingpipe,old,3.0,-135.0,2.0,-1.4142135623730954,-1.414213562373095,56.0,2.0,7.0,True,1,1.0108981180092087,old,1,55.98648395499913
2,2,10.0,recog,eyechart,old,4.0,-45.0,2.0,-1.414213562373095,1.4142135623730951,65.0,2.0,4.0,True,1,1.0948401639907388,old,1,64.98628153100435
2,2,11.0,recog,coffeebean,old,3.0,-135.0,2.0,-1.4142135623730954,-1.414213562373095,71.0,2.0,5.0,True,1,0.9429637399880448,old,1,70.98626759600302
2,2,12.0,recog,pastaspoon,new,,,2.0,,,78.0,2.0,4.0,True,2,1.6030837840080494,new,1,77.9862915440026
2,2,13.0,recog,cherrypicker,new,,,2.0,,,84.0,2.0,5.0,True,2,1.0362158329953672,new,1,83.98744276199432
2,2,14.0,recog,pavedsidewalk,new,,,2.0,,,91.0,2.0,4.0,True,2,0.8044755129958503,new,1,90.98617021499376
2,2,15.0,recog,medal02b,old,1.0,45.0,2.0,1.4142135623730951,1.414213562373095,97.0,2.0,4.0,True,1,1.3075382870010799,old,1,96.98608144999889
2,2,16.0,recog,steeringwheel,old,2.0,135.0,2.0,1.4142135623730951,-1.414213562373095,103.0,2.0,7.0,True,1,1.249566425991361,old,1,102.98601624000003
2,2,17.0,recog,locomotive,new,,,2.0,,,112.0,2.0,4.0,True,2,1.5438240189978387,new,1,111.98719443500158
2,2,18.0,recog,addressplate,old,1.0,45.0,2.0,1.4142135623730951,1.414213562373095,118.0,2.0,4.0,True,1,1.3598287390050245,old,1,117.98722707599518
2,2,19.0,recog,polarbear,old,2.0,135.0,2.0,1.4142135623730951,-1.414213562373095,124.0,2.0,5.0,True,1,2.0919636840117164,old,1,123.98712425299163
2,2,20.0,recog,wagonwheel,old,1.0,45.0,2.0,1.4142135623730951,1.414213562373095,131.0,2.0,5.0,True,1,1.1940530800056877,old,1,130.98707110699615
2,2,21.0,recog,petcarrier,new,,,2.0,,,138.0,2.0,4.0,True,2,1.217952619001153,new,1,137.98710923700128
2,2,22.0,recog,perfume01a,old,3.0,-135.0,2.0,-1.4142135623730954,-1.414213562373095,144.0,2.0,4.0,True,1,1.7257442329864716,old,1,143.98650561500108
2,2,23.0,recog,carsidemirror01,new,,,2.0,,,150.0,2.0,5.0,True,2,1.389616386994021,new,1,149.9872974769969
2,2,24.0,recog,litterbox,old,3.0,-135.0,2.0,-1.4142135623730954,-1.414213562373095,157.0,2.0,5.0,True,1,0.9504002089961432,old,1,156.9869907569955
2,2,25.0,recog,mitten04,old,3.0,-135.0,2.0,-1.4142135623730954,-1.414213562373095,164.0,2.0,4.0,True,1,0.9739575720013818,old,1,163.98704688200087
2,2,26.0,recog,stapleremover,new,,,2.0,,,170.0,2.0,4.0,True,2,1.0550188469933346,new,1,169.98699603999557
2,2,27.0,recog,walkman,new,,,2.0,,,176.0,2.0,6.0,True,2,0.8524301849975018,new,1,175.9872439680039
2,2,28.0,recog,kalashnikov,new,,,2.0,,,184.0,2.0,5.0,True,2,1.1223904520011274,new,1,183.98754111600283
2,2,29.0,recog,propanetank01,new,,,2.0,,,191.0,2.0,4.0,True,2,0.8669622300076298,new,1,190.9881103020016
2,2,30.0,recog,kiwi03,old,4.0,-45.0,2.0,-1.414213562373095,1.4142135623730951,197.0,2.0,4.0,True,1,1.2708095620037057,old,1,196.9874642789946
2,2,31.0,recog,macaque,new,,,2.0,,,203.0,2.0,6.0,True,2,1.0098217259946978,new,1,202.98816391699074
2,2,32.0,recog,giftbow02b,old,3.0,-135.0,2.0,-1.4142135623730954,-1.414213562373095,211.0,2.0,4.0,True,1,1.467785372005892,old,1,210.9881893589918
2,2,33.0,recog,kidbicycle,old,1.0,45.0,2.0,1.4142135623730951,1.414213562373095,217.0,2.0,4.0,True,1,2.7823345119977603,old,1,216.98809967699344
2,2,34.0,recog,lime,new,,,2.0,,,223.0,2.0,6.0,True,2,0.9217680309957359,new,1,222.98801256899606
2,2,35.0,recog,papershredder,new,,,2.0,,,231.0,2.0,4.0,True,2,1.147357150010066,new,1,230.98803839099128
2,2,36.0,recog,pecan01,new,,,2.0,,,237.0,2.0,4.0,True,2,1.133309623997775,new,1,236.9882001579972
2,2,37.0,recog,horse,new,,,2.0,,,243.0,2.0,5.0,True,2,1.1489332159981132,new,1,242.98811015899992
2,2,38.0,recog,floppydisk02a,old,1.0,45.0,2.0,1.4142135623730951,1.414213562373095,250.0,2.0,5.0,True,1,1.109209190995898,old,1,249.98824900799082
2,2,39.0,recog,chainsaw,new,,,2.0,,,257.0,2.0,4.0,True,2,2.090973975005909,new,1,256.9880742789974
2,2,40.0,recog,bicycle,old,3.0,-135.0,2.0,-1.4142135623730954,-1.414213562373095,263.0,2.0,4.0,True,1,1.7000555699924007,old,1,262.988227971
2,2,41.0,recog,thread02,new,,,2.0,,,269.0,2.0,6.0,True,2,1.2929162549989996,new,1,268.98811670800205
2,2,42.0,recog,tractor,new,,,2.0,,,277.0,2.0,4.0,True,2,1.944006019999506,new,1,276.98807378299534
2,2,43.0,recog,barbecuelighter,old,3.0,-135.0,2.0,-1.4142135623730954,-1.414213562373095,283.0,2.0,5.0,True,1,1.322349199996097,old,1,282.98810535999655
2,2,44.0,recog,tricycle,new,,,2.0,,,290.0,2.0,4.0,True,2,1.8459625219984446,new,1,289.98786193599517
2,2,45.0,recog,cessna,new,,,2.0,,,296.0,2.0,5.0,True,2,1.2739167849940713,new,1,295.9871537119907
2,2,46.0,recog,lynx01,new,,,2.0,,,303.0,2.0,4.0,True,2,1.0385711039998569,new,1,302.98627712499
2,2,47.0,recog,baseball01a,old,1.0,45.0,2.0,1.4142135623730951,1.414213562373095,309.0,2.0,4.0,True,1,1.106130871005007,old,1,308.98631179599033
2,2,48.0,recog,parkingmeter,old,4.0,-45.0,2.0,-1.414213562373095,1.4142135623730951,315.0,2.0,4.0,True,1,1.2484975710103754,old,1,314.9863191350014
