session,block,trial,block_type,stim_id,stim_cond,stim_cond_source,stim_ang,stim_eccen,stim_xpos,stim_ypos,stim_onset,stim_dur,isi,made_resp,key,rt,resp,acc,stim_timestamp
1,11,1.0,recog,eye,old,4.0,-45.0,2.0,-1.414213562373095,1.4142135623730951,0.0,2.0,7.0,True,1,0.8377076940014376,old,1.0,0.001891584000986768
1,11,2.0,recog,colonialhat,old,4.0,-45.0,2.0,-1.414213562373095,1.4142135623730951,9.0,2.0,4.0,True,1,0.939699473001383,old,1.0,9.000685274000716
1,11,3.0,recog,visor,old,1.0,45.0,2.0,1.4142135623730951,1.414213562373095,15.0,2.0,5.0,True,1,0.9306470580013411,old,1.0,14.98643576899849
1,11,4.0,recog,dolly01,new,,,2.0,,,22.0,2.0,4.0,True,2,0.9276788440001837,new,1.0,21.986375196000154
1,11,5.0,recog,rockinghorse,new,,,2.0,,,28.0,2.0,4.0,True,2,1.0123280469997553,new,1.0,27.986376556000323
1,11,6.0,recog,frenchfries,new,,,2.0,,,34.0,2.0,5.0,True,2,1.1254742689998238,new,1.0,33.9862406430002
1,11,7.0,recog,hibiscusflower02,new,,,2.0,,,41.0,2.0,4.0,True,2,0.8061849689984228,new,1.0,40.98634513599973
1,11,8.0,recog,fan,new,,,2.0,,,47.0,2.0,4.0,True,2,1.7310243339998124,new,1.0,46.9863982809984
1,11,9.0,recog,watermelon01,old,1.0,45.0,2.0,1.4142135623730951,1.414213562373095,53.0,2.0,5.0,True,1,0.6765650739980629,old,1.0,52.986569951001
1,11,10.0,recog,witchhat,new,,,2.0,,,60.0,2.0,4.0,True,2,0.918789753002784,new,1.0,59.986932296000305
1,11,11.0,recog,cabbage,new,,,2.0,,,66.0,2.0,6.0,True,2,1.8047777909996512,new,1.0,65.9870612429986
1,11,12.0,recog,ear,old,3.0,-135.0,2.0,-1.4142135623730954,-1.414213562373095,74.0,2.0,4.0,True,1,1.0319046110016643,old,1.0,73.9871506620002
1,11,13.0,recog,skateboard,old,2.0,135.0,2.0,1.4142135623730951,-1.414213562373095,80.0,2.0,4.0,True,1,0.8978941679997661,old,1.0,79.9871227650001
1,11,14.0,recog,tankertruck,old,1.0,45.0,2.0,1.4142135623730951,1.414213562373095,86.0,2.0,5.0,True,1,1.0469369669990556,old,1.0,85.98698052399777
1,11,15.0,recog,spatula03,new,,,2.0,,,93.0,2.0,6.0,True,2,1.191006016000756,new,1.0,92.98699336999925
1,11,16.0,recog,cellphone,old,2.0,135.0,2.0,1.4142135623730951,-1.414213562373095,101.0,2.0,5.0,True,1,1.1969517659999838,old,1.0,100.98711337499844
1,11,17.0,recog,chameleon,new,,,2.0,,,108.0,2.0,4.0,True,2,0.9513179559980927,new,1.0,107.98624898900016
1,11,18.0,recog,panda,new,,,2.0,,,114.0,2.0,4.0,True,2,1.3157454579995829,new,1.0,113.98696213400035
1,11,19.0,recog,corn02,new,,,2.0,,,120.0,2.0,6.0,True,1,1.548926647999906,old,0.0,119.9870338949986
1,11,20.0,recog,tire,new,,,2.0,,,128.0,2.0,4.0,True,2,3.0152272310006083,new,1.0,127.98730999100007
1,11,21.0,recog,stackingring01a,old,1.0,45.0,2.0,1.4142135623730951,1.414213562373095,134.0,2.0,4.0,True,1,0.9184375000004366,old,1.0,133.9869537400009
1,11,22.0,recog,garbagecan02,old,2.0,135.0,2.0,1.4142135623730951,-1.414213562373095,140.0,2.0,6.0,True,1,0.8188592909973522,old,1.0,139.98706723799842
1,11,23.0,recog,book01b,new,,,2.0,,,148.0,2.0,6.0,True,2,1.1232477289995586,new,1.0,147.98692452699834
1,11,24.0,recog,schoolbus,old,4.0,-45.0,2.0,-1.414213562373095,1.4142135623730951,156.0,2.0,4.0,True,1,1.3491733129994827,old,1.0,155.98713238599885
1,11,25.0,recog,lamp04a,new,,,2.0,,,162.0,2.0,4.0,True,2,1.0166562869999325,new,1.0,161.987335763999
1,11,26.0,recog,jellybean,new,,,2.0,,,168.0,2.0,4.0,True,2,0.8452531160000945,new,1.0,167.98805755899957
1,11,27.0,recog,exercisemachine,old,1.0,45.0,2.0,1.4142135623730951,1.414213562373095,174.0,2.0,5.0,True,1,1.6778716570006509,old,1.0,173.9880089929975
1,11,28.0,recog,record,old,4.0,-45.0,2.0,-1.414213562373095,1.4142135623730951,181.0,2.0,4.0,True,1,1.0789411760015355,old,1.0,180.98805165399972
1,11,29.0,recog,kettle01,old,2.0,135.0,2.0,1.4142135623730951,-1.414213562373095,187.0,2.0,4.0,True,1,1.1419974010022997,old,1.0,186.9881035849976
1,11,30.0,recog,lightbulb01,old,3.0,-135.0,2.0,-1.4142135623730954,-1.414213562373095,193.0,2.0,7.0,True,1,1.3216981509976904,old,1.0,192.98808834800002
1,11,31.0,recog,headphones02b,new,,,2.0,,,202.0,2.0,5.0,True,2,0.8698778920006589,new,1.0,201.98812619399905
1,11,32.0,recog,hairdryer02a,new,,,2.0,,,209.0,2.0,5.0,True,2,1.186574377999932,new,1.0,208.98812464100047
1,11,33.0,recog,jar03,new,,,2.0,,,216.0,2.0,4.0,True,2,1.1589660850004293,new,1.0,215.98807036699873
1,11,34.0,recog,policetape,old,4.0,-45.0,2.0,-1.414213562373095,1.4142135623730951,222.0,2.0,5.0,True,1,1.2046930260003137,old,1.0,221.9881697310011
1,11,35.0,recog,travelmug,old,2.0,135.0,2.0,1.4142135623730951,-1.414213562373095,229.0,2.0,5.0,True,1,1.0219923059994471,old,1.0,228.98787982700014
1,11,36.0,recog,kangaroo,new,,,2.0,,,236.0,2.0,6.0,True,2,1.119420540999272,new,1.0,235.98795462999988
1,11,37.0,recog,handbrush02,old,1.0,45.0,2.0,1.4142135623730951,1.414213562373095,244.0,2.0,7.0,True,1,1.0554868560029718,old,1.0,243.98803727400082
1,11,38.0,recog,moon,new,,,2.0,,,253.0,2.0,4.0,True,2,1.0486156400002073,new,1.0,252.9881821859999
1,11,39.0,recog,rockbass,new,,,2.0,,,259.0,2.0,4.0,True,2,2.2627655969990883,new,1.0,258.9881798469978
1,11,40.0,recog,garbagebin,new,,,2.0,,,265.0,2.0,4.0,True,2,2.0296344730013516,new,1.0,264.9880283499988
1,11,41.0,recog,floorlamp,new,,,2.0,,,271.0,2.0,4.0,True,2,1.4547138669986452,new,1.0,270.98807818899877
1,11,42.0,recog,drinkshaker,old,3.0,-135.0,2.0,-1.4142135623730954,-1.414213562373095,277.0,2.0,4.0,True,1,1.2382819880003808,old,1.0,276.986359732
1,11,43.0,recog,rooster,old,1.0,45.0,2.0,1.4142135623730951,1.414213562373095,283.0,2.0,4.0,True,1,1.0907774759980384,old,1.0,282.9864455889983
1,11,44.0,recog,raspberry01,new,,,2.0,,,289.0,2.0,5.0,True,2,1.1692203519996838,new,1.0,288.9864147519984
1,11,45.0,recog,trafficlight,old,4.0,-45.0,2.0,-1.414213562373095,1.4142135623730951,296.0,2.0,5.0,True,1,1.614179549000255,old,1.0,295.98629307399824
1,11,46.0,recog,wetfloorsign,old,2.0,135.0,2.0,1.4142135623730951,-1.414213562373095,303.0,2.0,4.0,True,1,1.59519440999793,old,1.0,302.98634751200007
1,11,47.0,recog,nose,old,1.0,45.0,2.0,1.4142135623730951,1.414213562373095,309.0,2.0,4.0,True,1,1.3885095980003825,old,1.0,308.98640299199906
1,11,48.0,recog,tortillachip,old,4.0,-45.0,2.0,-1.414213562373095,1.4142135623730951,315.0,2.0,4.0,False,,,,,314.9864324199989
