session,block,trial,block_type,stim_id,stim_cond,stim_cond_source,stim_ang,stim_eccen,stim_xpos,stim_ypos,stim_onset,stim_dur,isi,made_resp,key,rt,resp,acc,stim_timestamp
2,8,1.0,recog,cabbage,old,3.0,-135.0,2.0,-1.4142135623730954,-1.414213562373095,0.0,2.0,6.0,True,1,0.778737505999743,old,1,0.00202926600468345
2,8,2.0,recog,handbag02a,old,4.0,-45.0,2.0,-1.414213562373095,1.4142135623730951,8.0,2.0,5.0,True,2,0.812414086991339,new,0,7.986482434003847
2,8,3.0,recog,toynutcracker,new,,,2.0,,,15.0,2.0,4.0,True,2,0.7838155049976194,new,1,14.986415388004389
2,8,4.0,recog,steeringwheel,new,,,2.0,,,21.0,2.0,4.0,True,2,0.7918489409930771,new,1,20.98633006399905
2,8,5.0,recog,paddleball,old,3.0,-135.0,2.0,-1.4142135623730954,-1.414213562373095,27.0,2.0,6.0,True,1,1.1113856970041525,old,1,26.98670693799795
2,8,6.0,recog,bull,new,,,2.0,,,35.0,2.0,4.0,True,2,1.8033680529915728,new,1,34.985898512008134
2,8,7.0,recog,star,new,,,2.0,,,41.0,2.0,5.0,True,2,0.7467690050107194,new,1,40.98652433900861
2,8,8.0,recog,pineapple01a,old,2.0,135.0,2.0,1.4142135623730951,-1.414213562373095,48.0,2.0,6.0,True,1,0.72533637000015,old,1,47.98638674900576
2,8,9.0,recog,key01,old,1.0,45.0,2.0,1.4142135623730951,1.414213562373095,56.0,2.0,4.0,True,1,0.8394468009937555,old,1,55.98638498899527
2,8,10.0,recog,pugdog,old,3.0,-135.0,2.0,-1.4142135623730954,-1.414213562373095,62.0,2.0,4.0,True,1,0.9338156309968326,old,1,61.986440759006655
2,8,11.0,recog,acousticguitar02,new,,,2.0,,,68.0,2.0,7.0,True,2,0.7761696579982527,new,1,67.9865354890062
2,8,12.0,recog,onion,old,2.0,135.0,2.0,1.4142135623730951,-1.414213562373095,77.0,2.0,5.0,True,1,0.8393402819929179,old,1,76.98642710200511
2,8,13.0,recog,honeybee,new,,,2.0,,,84.0,2.0,4.0,True,2,0.8465113450074568,new,1,83.98720160100493
2,8,14.0,recog,skunk,old,2.0,135.0,2.0,1.4142135623730951,-1.414213562373095,90.0,2.0,5.0,True,1,1.143243918006192,old,1,89.9872168610018
2,8,15.0,recog,grizzly,new,,,2.0,,,97.0,2.0,4.0,True,2,0.9459836799942423,new,1,96.98706679500174
2,8,16.0,recog,computerkeyboard02,new,,,2.0,,,103.0,2.0,4.0,True,2,0.997374395999941,new,1,102.98720228300954
2,8,17.0,recog,lynx01,old,4.0,-45.0,2.0,-1.414213562373095,1.4142135623730951,109.0,2.0,7.0,True,1,0.9216311189957196,old,1,108.98698085000797
2,8,18.0,recog,lemon02,new,,,2.0,,,118.0,2.0,4.0,True,2,1.2032945440005278,new,1,117.9868123549968
2,8,19.0,recog,tennisball01b,new,,,2.0,,,124.0,2.0,4.0,True,2,0.9114038159896154,new,1,123.98705932500889
2,8,20.0,recog,ant,new,,,2.0,,,130.0,2.0,6.0,True,2,0.6548780930024805,new,1,129.986453592006
2,8,21.0,recog,turnip,old,2.0,135.0,2.0,1.4142135623730951,-1.414213562373095,138.0,2.0,7.0,True,1,1.0640292999887606,old,1,137.98686080799962
2,8,22.0,recog,cardboardbox,old,4.0,-45.0,2.0,-1.414213562373095,1.4142135623730951,147.0,2.0,4.0,True,1,0.832340328997816,old,1,146.9870467790024
2,8,23.0,recog,trafficlight,old,4.0,-45.0,2.0,-1.414213562373095,1.4142135623730951,153.0,2.0,5.0,True,1,0.6498674670001492,old,1,152.98699736200797
2,8,24.0,recog,toilet,old,2.0,135.0,2.0,1.4142135623730951,-1.414213562373095,160.0,2.0,4.0,True,1,0.6522593090048758,old,1,159.9871617989993
2,8,25.0,recog,cassettetape01a,new,,,2.0,,,166.0,2.0,4.0,True,2,1.5412172329961322,new,1,165.98709280700132
2,8,26.0,recog,clownfish,new,,,2.0,,,172.0,2.0,5.0,True,2,0.8278320350073045,new,1,171.98702057699848
2,8,27.0,recog,handcuffs,new,,,2.0,,,179.0,2.0,4.0,True,2,1.0306473059899872,new,1,178.98715506099688
2,8,28.0,recog,eagle,old,3.0,-135.0,2.0,-1.4142135623730954,-1.414213562373095,185.0,2.0,5.0,True,2,1.0603001419949578,new,0,184.98698983200302
2,8,29.0,recog,heron01,new,,,2.0,,,192.0,2.0,4.0,True,2,0.9375503369956277,new,1,191.98759095399873
2,8,30.0,recog,knee,new,,,2.0,,,198.0,2.0,4.0,True,2,1.0917124239931582,new,1,197.98800218499673
2,8,31.0,recog,giftbag01a,old,2.0,135.0,2.0,1.4142135623730951,-1.414213562373095,204.0,2.0,4.0,True,1,0.9988734479993582,old,1,203.98814058800053
2,8,32.0,recog,litterbox,old,4.0,-45.0,2.0,-1.414213562373095,1.4142135623730951,210.0,2.0,5.0,True,1,0.9152669079921907,old,1,209.98832875200605
2,8,33.0,recog,strawbasket01,new,,,2.0,,,217.0,2.0,4.0,True,2,0.846665655990364,new,1,216.98799927299842
2,8,34.0,recog,barnowl,old,2.0,135.0,2.0,1.4142135623730951,-1.414213562373095,223.0,2.0,4.0,True,1,0.974224259989569,old,1,222.98819874200854
2,8,35.0,recog,frenchhorn,old,3.0,-135.0,2.0,-1.4142135623730954,-1.414213562373095,229.0,2.0,4.0,True,1,1.0754315829981351,old,1,228.98822976800147
2,8,36.0,recog,racquetballracket,new,,,2.0,,,235.0,2.0,5.0,True,2,1.1910293900000397,new,1,234.9881285750016
2,8,37.0,recog,ring01,new,,,2.0,,,242.0,2.0,4.0,True,2,0.9156111699994653,new,1,241.98815881600603
2,8,38.0,recog,accordion01,new,,,2.0,,,248.0,2.0,6.0,True,2,0.9542690390080679,new,1,247.98799258800864
2,8,39.0,recog,playground,new,,,2.0,,,256.0,2.0,5.0,True,2,0.7069530239969026,new,1,255.98800275499525
2,8,40.0,recog,cauliflower01,new,,,2.0,,,263.0,2.0,4.0,True,2,0.6798813979985425,new,1,262.9879773200082
2,8,41.0,recog,dromedary,old,2.0,135.0,2.0,1.4142135623730951,-1.414213562373095,269.0,2.0,4.0,True,1,0.917057612008648,old,1,268.98822132500936
2,8,42.0,recog,podium,old,1.0,45.0,2.0,1.4142135623730951,1.414213562373095,275.0,2.0,4.0,True,1,0.6746290589944692,old,1,274.98799632900045
2,8,43.0,recog,wineglass01,old,2.0,135.0,2.0,1.4142135623730951,-1.414213562373095,281.0,2.0,5.0,True,1,0.9379307540075388,old,1,280.9881744000013
2,8,44.0,recog,beachpaddle01a,new,,,2.0,,,288.0,2.0,5.0,True,2,0.8226774719951209,new,1,287.98828561100527
2,8,45.0,recog,hibiscusflower02,old,1.0,45.0,2.0,1.4142135623730951,1.414213562373095,295.0,2.0,4.0,True,1,0.7293543400010094,old,1,294.98797105500125
2,8,46.0,recog,frisbee,new,,,2.0,,,301.0,2.0,4.0,True,2,0.7580467209918424,new,1,300.98808922500757
2,8,47.0,recog,metalscissors,old,3.0,-135.0,2.0,-1.4142135623730954,-1.414213562373095,307.0,2.0,6.0,True,1,1.593185055986396,old,1,306.9863797349972
2,8,48.0,recog,pecan01,old,3.0,-135.0,2.0,-1.4142135623730954,-1.414213562373095,315.0,2.0,4.0,True,1,0.7806570990069304,old,1,314.98675915600325
