session,block,trial,block_type,stim_id,stim_cond,stim_cond_source,stim_ang,stim_eccen,stim_xpos,stim_ypos,stim_onset,stim_dur,isi,made_resp,key,rt,resp,acc,stim_timestamp
1,14,1.0,recog,leek,new,,,2.0,,,0.0,2.0,4.0,True,2,0.7304782740002338,new,1.0,0.0018873959998018108
1,14,2.0,recog,parkingmeter,old,4.0,-45.0,2.0,-1.414213562373095,1.4142135623730951,6.0,2.0,4.0,True,2,1.1784125220001442,new,0.0,6.001929230999849
1,14,3.0,recog,hairdryer02a,new,,,2.0,,,12.0,2.0,4.0,True,2,1.022769335000703,new,1.0,11.986291262000123
1,14,4.0,recog,record,old,4.0,-45.0,2.0,-1.414213562373095,1.4142135623730951,18.0,2.0,4.0,True,1,0.6676168970006984,old,1.0,17.98638540600041
1,14,5.0,recog,pill,old,3.0,-135.0,2.0,-1.4142135623730954,-1.414213562373095,24.0,2.0,4.0,True,1,0.684436249999635,old,1.0,23.986308499999723
1,14,6.0,recog,flask,old,4.0,-45.0,2.0,-1.414213562373095,1.4142135623730951,30.0,2.0,4.0,True,2,0.9760865419993934,new,0.0,29.986328029000106
1,14,7.0,recog,blender,old,2.0,135.0,2.0,1.4142135623730951,-1.414213562373095,36.0,2.0,4.0,True,2,3.2704807789996266,new,0.0,35.986360322999644
1,14,8.0,recog,knife03,new,,,2.0,,,42.0,2.0,5.0,True,2,2.025456946000304,new,1.0,41.985731439999654
1,14,9.0,recog,seagull,old,3.0,-135.0,2.0,-1.4142135623730954,-1.414213562373095,49.0,2.0,4.0,True,1,0.796596486999988,old,1.0,48.98649068299983
1,14,10.0,recog,chain01,old,2.0,135.0,2.0,1.4142135623730951,-1.414213562373095,55.0,2.0,4.0,True,1,0.6691658610006925,old,1.0,54.986351257000024
1,14,11.0,recog,callbell,old,4.0,-45.0,2.0,-1.414213562373095,1.4142135623730951,61.0,2.0,6.0,True,1,1.2309360660001403,old,1.0,60.98629444299968
1,14,12.0,recog,parkbench02,old,2.0,135.0,2.0,1.4142135623730951,-1.414213562373095,69.0,2.0,6.0,True,1,0.7143025830000624,old,1.0,68.98645262900027
1,14,13.0,recog,dropper01,old,2.0,135.0,2.0,1.4142135623730951,-1.414213562373095,77.0,2.0,5.0,True,2,1.0511186309995537,new,0.0,76.9863817129999
1,14,14.0,recog,measuringtape01,new,,,2.0,,,84.0,2.0,5.0,True,2,0.9755718779997551,new,1.0,83.98657945000014
1,14,15.0,recog,witchhat,old,1.0,45.0,2.0,1.4142135623730951,1.414213562373095,91.0,2.0,4.0,True,1,0.7372272220000013,old,1.0,90.98549098600051
1,14,16.0,recog,pickle01a,new,,,2.0,,,97.0,2.0,4.0,True,1,3.063257166999392,old,0.0,96.98714508900048
1,14,17.0,recog,slipper01b,new,,,2.0,,,103.0,2.0,4.0,True,2,0.8593364139996993,new,1.0,102.9873058789999
1,14,18.0,recog,congadrum,new,,,2.0,,,109.0,2.0,4.0,True,2,1.139020115000676,new,1.0,108.98724223200043
1,14,19.0,recog,horse,old,4.0,-45.0,2.0,-1.414213562373095,1.4142135623730951,115.0,2.0,5.0,True,1,0.7013197349997426,old,1.0,114.98712502099988
1,14,20.0,recog,corn02,new,,,2.0,,,122.0,2.0,5.0,True,2,0.7584671470003741,new,1.0,121.98723991000043
1,14,21.0,recog,moon,new,,,2.0,,,129.0,2.0,7.0,True,2,0.7894704250002178,new,1.0,128.98737285399966
1,14,22.0,recog,windshieldwasherfluid,new,,,2.0,,,138.0,2.0,7.0,True,2,1.4851627680000092,new,1.0,137.9873099209999
1,14,23.0,recog,portapotty,old,3.0,-135.0,2.0,-1.4142135623730954,-1.414213562373095,147.0,2.0,5.0,True,1,0.9217517449997104,old,1.0,146.9871550300004
1,14,24.0,recog,chessknight03a,old,1.0,45.0,2.0,1.4142135623730951,1.414213562373095,154.0,2.0,5.0,True,1,0.7044149119992653,old,1.0,153.98725536300026
1,14,25.0,recog,bed,new,,,2.0,,,161.0,2.0,6.0,True,2,0.8207070889993702,new,1.0,160.9871853479999
1,14,26.0,recog,dolly01,new,,,2.0,,,169.0,2.0,5.0,True,2,0.8531593049992807,new,1.0,168.98733711499972
1,14,27.0,recog,toothpastetube,new,,,2.0,,,176.0,2.0,6.0,True,2,0.9247983029999887,new,1.0,175.98710846999984
1,14,28.0,recog,rockinghorse,new,,,2.0,,,184.0,2.0,6.0,True,2,0.8080531710002106,new,1.0,183.98713757400037
1,14,29.0,recog,spatula03,new,,,2.0,,,192.0,2.0,4.0,True,2,1.019424223999522,new,1.0,191.9871834129999
1,14,30.0,recog,garbagecan02,new,,,2.0,,,198.0,2.0,4.0,True,2,1.0462063300001319,new,1.0,197.9873697060002
1,14,31.0,recog,toiletbrush,new,,,2.0,,,204.0,2.0,4.0,True,2,1.385863728000004,new,1.0,203.9872549239999
1,14,32.0,recog,snowglobe,old,3.0,-135.0,2.0,-1.4142135623730954,-1.414213562373095,210.0,2.0,5.0,True,1,0.8610682739999902,old,1.0,209.9862636099997
1,14,33.0,recog,doormat,old,3.0,-135.0,2.0,-1.4142135623730954,-1.414213562373095,217.0,2.0,4.0,True,1,0.7607624689999284,old,1.0,216.98813666000024
1,14,34.0,recog,pintofbeer,new,,,2.0,,,223.0,2.0,5.0,True,2,0.9370951309992961,new,1.0,222.98825103299987
1,14,35.0,recog,keyboard,new,,,2.0,,,230.0,2.0,5.0,True,2,1.1104800430002797,new,1.0,229.9881370080002
1,14,36.0,recog,measuringspoon,old,4.0,-45.0,2.0,-1.414213562373095,1.4142135623730951,237.0,2.0,4.0,True,2,1.0429928639996433,new,0.0,236.9881148350005
1,14,37.0,recog,raspberry01,new,,,2.0,,,243.0,2.0,7.0,True,1,0.11935726999945473,old,0.0,242.98626888499984
1,14,38.0,recog,tshirt,old,1.0,45.0,2.0,1.4142135623730951,1.414213562373095,252.0,2.0,4.0,True,1,0.798220227999991,old,1.0,251.98641284400037
1,14,39.0,recog,hubcap,old,4.0,-45.0,2.0,-1.414213562373095,1.4142135623730951,258.0,2.0,6.0,True,1,0.6345358969992958,old,1.0,257.98802167099984
1,14,40.0,recog,dolphin01,new,,,2.0,,,266.0,2.0,4.0,True,1,0.9002115420007613,old,0.0,265.98807373399995
1,14,41.0,recog,firehydrant,old,1.0,45.0,2.0,1.4142135623730951,1.414213562373095,272.0,2.0,5.0,True,1,0.9944340920001196,old,1.0,271.9863043329997
1,14,42.0,recog,aircompressor,new,,,2.0,,,279.0,2.0,4.0,False,,,,,278.9880406980001
1,14,43.0,recog,bagel01,new,,,2.0,,,285.0,2.0,4.0,True,2,1.0089754749997155,new,1.0,284.98644044899993
1,14,44.0,recog,masquerademask01,old,2.0,135.0,2.0,1.4142135623730951,-1.414213562373095,291.0,2.0,4.0,True,2,0.9369601670005068,new,0.0,290.98566607999965
1,14,45.0,recog,tire,new,,,2.0,,,297.0,2.0,4.0,True,2,1.0024263169998449,new,1.0,296.9875749929997
1,14,46.0,recog,travelmug,old,2.0,135.0,2.0,1.4142135623730951,-1.414213562373095,303.0,2.0,4.0,True,1,0.8380681409998942,old,1.0,302.9880789710005
1,14,47.0,recog,perfume01a,old,3.0,-135.0,2.0,-1.4142135623730954,-1.414213562373095,309.0,2.0,4.0,True,1,0.8304658170000039,old,1.0,308.9863573290004
1,14,48.0,recog,drumset,old,4.0,-45.0,2.0,-1.414213562373095,1.4142135623730951,315.0,2.0,4.0,True,1,0.811078126999746,old,1.0,314.98818446600035
