session,block,trial,block_type,stim_id,stim_cond,stim_cond_source,stim_ang,stim_eccen,stim_xpos,stim_ypos,stim_onset,stim_dur,isi,made_resp,key,rt,resp,acc,stim_timestamp
1,5,1.0,recog,taperecorder,new,,,2.0,,,0.0,2.0,5.0,True,2,0.7396343019790947,new,1,0.0019199620001018047
1,5,2.0,recog,chandelier,new,,,2.0,,,7.0,2.0,4.0,True,2,0.9239909920142964,new,1,7.006206060003024
1,5,3.0,recog,screw02,old,4.0,-45.0,2.0,-1.414213562373095,1.4142135623730951,13.0,2.0,7.0,True,1,0.9135694520082325,old,1,12.986074377957266
1,5,4.0,recog,firstaidkit,new,,,2.0,,,22.0,2.0,4.0,True,2,1.5604325709864497,new,1,21.986037647002377
1,5,5.0,recog,pineapple01a,new,,,2.0,,,28.0,2.0,4.0,True,2,1.0009186269599013,new,1,27.98603671300225
1,5,6.0,recog,watercolorpaintset,old,1.0,45.0,2.0,1.4142135623730951,1.414213562373095,34.0,2.0,4.0,True,1,0.8111407909891568,old,1,33.98586367798271
1,5,7.0,recog,snowman,new,,,2.0,,,40.0,2.0,7.0,True,2,0.7988356260466389,new,1,39.98585999599891
1,5,8.0,recog,litterbox,old,3.0,-135.0,2.0,-1.4142135623730954,-1.414213562373095,49.0,2.0,5.0,True,1,0.9520390569814481,old,1,48.98578354000347
1,5,9.0,recog,cartonofeggs,old,4.0,-45.0,2.0,-1.414213562373095,1.4142135623730951,56.0,2.0,5.0,True,1,0.7708712420426309,old,1,55.985743173980154
1,5,10.0,recog,chessknight03a,new,,,2.0,,,63.0,2.0,4.0,True,2,0.7696313409833238,new,1,62.985695759998634
1,5,11.0,recog,garbagecan02,old,1.0,45.0,2.0,1.4142135623730951,1.414213562373095,69.0,2.0,4.0,True,1,0.8692235039779916,old,1,68.98554418899585
1,5,12.0,recog,pacifier02d,old,1.0,45.0,2.0,1.4142135623730951,1.414213562373095,75.0,2.0,5.0,True,1,0.8617749339900911,old,1,74.98549772700062
1,5,13.0,recog,microphone01,old,2.0,135.0,2.0,1.4142135623730951,-1.414213562373095,82.0,2.0,4.0,True,1,0.9373939229990356,old,1,81.98718704900239
1,5,14.0,recog,fishinghook03,new,,,2.0,,,88.0,2.0,4.0,True,2,1.4163874610094354,new,1,87.98736373899737
1,5,15.0,recog,jeans01,old,3.0,-135.0,2.0,-1.4142135623730954,-1.414213562373095,94.0,2.0,4.0,True,1,0.8085166939999908,old,1,93.98715240397723
1,5,16.0,recog,flipflop01b,new,,,2.0,,,100.0,2.0,5.0,True,2,0.7398050110205077,new,1,99.98717664100695
1,5,17.0,recog,tshirt,old,2.0,135.0,2.0,1.4142135623730951,-1.414213562373095,107.0,2.0,4.0,True,1,0.7555209620040841,old,1,106.98727768100798
1,5,18.0,recog,iceskate,new,,,2.0,,,113.0,2.0,4.0,True,2,0.9598997170105577,new,1,112.9870638519642
1,5,19.0,recog,tuque03a,new,,,2.0,,,119.0,2.0,4.0,True,2,0.7869527849834412,new,1,118.98702579800738
1,5,20.0,recog,pouch01b,old,3.0,-135.0,2.0,-1.4142135623730954,-1.414213562373095,125.0,2.0,6.0,True,1,1.0040943420026451,old,1,124.98733766295481
1,5,21.0,recog,donut,new,,,2.0,,,133.0,2.0,5.0,True,2,0.8438526690006256,new,1,132.9864081759588
1,5,22.0,recog,lightswitch01,new,,,2.0,,,140.0,2.0,4.0,True,2,0.7637242749915458,new,1,139.9871127649676
1,5,23.0,recog,dice05a,new,,,2.0,,,146.0,2.0,4.0,True,2,0.9936596360057592,new,1,145.98725670896238
1,5,24.0,recog,potatomasher03b,old,2.0,135.0,2.0,1.4142135623730951,-1.414213562373095,152.0,2.0,4.0,True,1,0.7979900910286233,old,1,151.98722850100603
1,5,25.0,recog,microwave,new,,,2.0,,,158.0,2.0,4.0,True,2,0.7703359220176935,new,1,157.98722358595114
1,5,26.0,recog,hose,old,2.0,135.0,2.0,1.4142135623730951,-1.414213562373095,164.0,2.0,4.0,True,1,0.6899944550241344,old,1,163.98719892796362
1,5,27.0,recog,peppermill02b,new,,,2.0,,,170.0,2.0,5.0,True,2,1.0344756090198644,new,1,169.98721903999103
1,5,28.0,recog,porsche,old,4.0,-45.0,2.0,-1.414213562373095,1.4142135623730951,177.0,2.0,4.0,True,1,0.9139655769686215,old,1,176.98735605797265
1,5,29.0,recog,jar03,old,2.0,135.0,2.0,1.4142135623730951,-1.414213562373095,183.0,2.0,5.0,True,1,0.7913380550453439,old,1,182.98647993896157
1,5,30.0,recog,drumset,new,,,2.0,,,190.0,2.0,4.0,True,2,1.0933819309575483,new,1,189.9880669779959
1,5,31.0,recog,clock01a,new,,,2.0,,,196.0,2.0,6.0,True,2,0.8111756189609878,new,1,195.98820173699642
1,5,32.0,recog,hammer01,old,4.0,-45.0,2.0,-1.414213562373095,1.4142135623730951,204.0,2.0,5.0,True,1,0.7888812929741107,old,1,203.9881558889756
1,5,33.0,recog,rollerblade,new,,,2.0,,,211.0,2.0,6.0,True,2,1.1239101910032332,new,1,210.98804176098201
1,5,34.0,recog,cow,new,,,2.0,,,219.0,2.0,4.0,True,2,0.8431776009965688,new,1,218.9881968679838
1,5,35.0,recog,rooster,new,,,2.0,,,225.0,2.0,4.0,True,2,1.0721423650393263,new,1,224.98810427298304
1,5,36.0,recog,laptop01a,old,1.0,45.0,2.0,1.4142135623730951,1.414213562373095,231.0,2.0,5.0,True,2,1.275748297048267,new,0,230.9881763549638
1,5,37.0,recog,puttyknife,old,4.0,-45.0,2.0,-1.414213562373095,1.4142135623730951,238.0,2.0,7.0,True,1,0.8482405349495821,old,1,237.98813397000777
1,5,38.0,recog,microscope,old,1.0,45.0,2.0,1.4142135623730951,1.414213562373095,247.0,2.0,4.0,True,1,0.6864518789807335,old,1,246.98809728497872
1,5,39.0,recog,carkey,new,,,2.0,,,253.0,2.0,4.0,True,2,0.8338896650238894,new,1,252.98828745196806
1,5,40.0,recog,sturgeon,old,4.0,-45.0,2.0,-1.414213562373095,1.4142135623730951,259.0,2.0,5.0,True,1,0.7927794620045461,old,1,258.9880355739733
1,5,41.0,recog,toytractor01b,new,,,2.0,,,266.0,2.0,6.0,True,2,0.812464757997077,new,1,265.98820152896224
1,5,42.0,recog,tissuebox01b,new,,,2.0,,,274.0,2.0,6.0,True,2,0.833995393011719,new,1,273.9882816610043
1,5,43.0,recog,pooltable,old,1.0,45.0,2.0,1.4142135623730951,1.414213562373095,282.0,2.0,6.0,True,1,0.7484324790420942,old,1,281.98796509497333
1,5,44.0,recog,megaphone,new,,,2.0,,,290.0,2.0,4.0,True,2,0.9985469590174034,new,1,289.9882555609802
1,5,45.0,recog,ladybug03,old,3.0,-135.0,2.0,-1.4142135623730954,-1.414213562373095,296.0,2.0,4.0,True,1,0.6525823269621469,old,1,295.98811741999816
1,5,46.0,recog,hardhat02,old,2.0,135.0,2.0,1.4142135623730951,-1.414213562373095,302.0,2.0,4.0,True,1,0.9278000590275042,old,1,301.9863138519577
1,5,47.0,recog,greenolive,old,4.0,-45.0,2.0,-1.414213562373095,1.4142135623730951,308.0,2.0,4.0,True,1,1.6891841089818627,old,1,307.9864162489539
1,5,48.0,recog,mushroom01,old,4.0,-45.0,2.0,-1.414213562373095,1.4142135623730951,314.0,2.0,5.0,True,1,0.6576097189681605,old,1,313.9863038189942
