session,block,trial,block_type,stim_id,stim_cond,stim_cond_source,stim_ang,stim_eccen,stim_xpos,stim_ypos,stim_onset,stim_dur,isi,made_resp,key,rt,resp,acc,stim_timestamp
2,11,1.0,recog,dandelion,new,,,2.0,,,0.0,2.0,4.0,True,2,1.5415744599886239,new,1,0.0018751859897747636
2,11,2.0,recog,wheelchair,old,2.0,135.0,2.0,1.4142135623730951,-1.414213562373095,6.0,2.0,5.0,True,1,0.9591111239860766,old,1,6.002330347022507
2,11,3.0,recog,bowl01,new,,,2.0,,,13.0,2.0,5.0,True,2,0.8034356900025159,new,1,12.986305047001224
2,11,4.0,recog,tree,new,,,2.0,,,20.0,2.0,5.0,True,2,0.9111633659922518,new,1,19.985762881988194
2,11,5.0,recog,noparkingsign,old,3.0,-135.0,2.0,-1.4142135623730954,-1.414213562373095,27.0,2.0,5.0,True,1,0.7535781099577434,old,1,26.9871254269965
2,11,6.0,recog,toyanimal04,old,1.0,45.0,2.0,1.4142135623730951,1.414213562373095,34.0,2.0,4.0,True,1,1.1534468900063075,old,1,33.987066174973734
2,11,7.0,recog,sunglasses04,old,3.0,-135.0,2.0,-1.4142135623730954,-1.414213562373095,40.0,2.0,4.0,True,1,0.6747071460122243,old,1,39.98713969398523
2,11,8.0,recog,flask,new,,,2.0,,,46.0,2.0,4.0,True,2,0.7448489660164341,new,1,45.98727232898818
2,11,9.0,recog,syringe01,new,,,2.0,,,52.0,2.0,7.0,True,2,0.8757977879722603,new,1,51.98713130701799
2,11,10.0,recog,manholecover,new,,,2.0,,,61.0,2.0,4.0,True,2,0.7963498660246842,new,1,60.987044953973964
2,11,11.0,recog,popcorn,new,,,2.0,,,67.0,2.0,4.0,True,2,0.8141789410146885,new,1,66.98720342997694
2,11,12.0,recog,qtip,old,3.0,-135.0,2.0,-1.4142135623730954,-1.414213562373095,73.0,2.0,4.0,True,1,0.6899000080302358,old,1,72.98682240897324
2,11,13.0,recog,locomotive,old,3.0,-135.0,2.0,-1.4142135623730954,-1.414213562373095,79.0,2.0,5.0,True,1,1.7570555210113525,old,1,78.98699473502347
2,11,14.0,recog,gps,old,3.0,-135.0,2.0,-1.4142135623730954,-1.414213562373095,86.0,2.0,4.0,True,1,0.9489099110360257,old,1,85.98702040698845
2,11,15.0,recog,schoolbus,new,,,2.0,,,92.0,2.0,4.0,True,2,0.7759508300223388,new,1,91.98716623900691
2,11,16.0,recog,jackrabbit,new,,,2.0,,,98.0,2.0,4.0,True,2,1.0543930510175414,new,1,97.98745604697615
2,11,17.0,recog,pickaxe02,old,4.0,-45.0,2.0,-1.414213562373095,1.4142135623730951,104.0,2.0,5.0,True,1,0.7012574810069054,old,1,103.98695106001105
2,11,18.0,recog,nametag01a,new,,,2.0,,,111.0,2.0,4.0,True,2,1.3078642059699632,new,1,110.98716646601679
2,11,19.0,recog,barrel01,old,1.0,45.0,2.0,1.4142135623730951,1.414213562373095,117.0,2.0,7.0,True,1,0.6848706870223396,old,1,116.9871126540238
2,11,20.0,recog,chipmunk,new,,,2.0,,,126.0,2.0,4.0,True,2,0.8479439379880205,new,1,125.98710954602575
2,11,21.0,recog,candleholder01,old,3.0,-135.0,2.0,-1.4142135623730954,-1.414213562373095,132.0,2.0,4.0,True,1,1.2259061430231668,old,1,131.987109469017
2,11,22.0,recog,golfball,old,2.0,135.0,2.0,1.4142135623730951,-1.414213562373095,138.0,2.0,5.0,True,1,1.028145294985734,old,1,137.9870830969885
2,11,23.0,recog,lamp04a,old,3.0,-135.0,2.0,-1.4142135623730954,-1.414213562373095,145.0,2.0,4.0,True,1,0.7721968859550543,old,1,144.98700855497736
2,11,24.0,recog,grape01,new,,,2.0,,,151.0,2.0,4.0,True,2,0.8837887239642441,new,1,150.98726502299542
2,11,25.0,recog,eagle,new,,,2.0,,,157.0,2.0,4.0,True,2,1.1266264629666694,new,1,156.98818225797731
2,11,26.0,recog,cucumber,old,1.0,45.0,2.0,1.4142135623730951,1.414213562373095,163.0,2.0,4.0,True,1,0.6743107910151593,old,1,162.98818582098465
2,11,27.0,recog,peeler01,old,4.0,-45.0,2.0,-1.414213562373095,1.4142135623730951,169.0,2.0,7.0,True,1,1.2418039310141467,old,1,168.98798189300578
2,11,28.0,recog,pylon01,old,2.0,135.0,2.0,1.4142135623730951,-1.414213562373095,178.0,2.0,4.0,True,1,0.7660886090015993,old,1,177.98809710500063
2,11,29.0,recog,pumpkin,new,,,2.0,,,184.0,2.0,6.0,True,2,0.8851443869643845,new,1,183.98806065699318
2,11,30.0,recog,diploma02,old,4.0,-45.0,2.0,-1.414213562373095,1.4142135623730951,192.0,2.0,5.0,True,1,0.9583203409565613,old,1,191.98856134299422
2,11,31.0,recog,lightbulb01,new,,,2.0,,,199.0,2.0,4.0,True,2,0.8550409380113706,new,1,198.9880954999826
2,11,32.0,recog,propanetank01,old,2.0,135.0,2.0,1.4142135623730951,-1.414213562373095,205.0,2.0,5.0,True,1,0.9043541800347157,old,1,204.9882279469748
2,11,33.0,recog,lintroller,old,3.0,-135.0,2.0,-1.4142135623730954,-1.414213562373095,212.0,2.0,4.0,True,1,0.7780122829717584,old,1,211.9881158209755
2,11,34.0,recog,lunchbox,new,,,2.0,,,218.0,2.0,6.0,True,2,1.236480201012455,new,1,217.98800676799146
2,11,35.0,recog,strawberry,old,1.0,45.0,2.0,1.4142135623730951,1.414213562373095,226.0,2.0,6.0,True,1,0.8541087369667366,old,1,225.9877852940117
2,11,36.0,recog,tire,old,3.0,-135.0,2.0,-1.4142135623730954,-1.414213562373095,234.0,2.0,4.0,True,1,0.8245073819998652,old,1,233.9881903299829
2,11,37.0,recog,bench01,new,,,2.0,,,240.0,2.0,4.0,True,2,0.9407237549894489,new,1,239.98827769601485
2,11,38.0,recog,giftbow02b,new,,,2.0,,,246.0,2.0,4.0,True,2,0.9875728040351532,new,1,245.98827271402115
2,11,39.0,recog,hanger02a,new,,,2.0,,,252.0,2.0,5.0,True,2,0.8747473869589157,new,1,251.98816362797515
2,11,40.0,recog,dreamcatcher,old,4.0,-45.0,2.0,-1.414213562373095,1.4142135623730951,259.0,2.0,4.0,True,1,0.8100027950131334,old,1,258.9882409389829
2,11,41.0,recog,smokingpipe,new,,,2.0,,,265.0,2.0,5.0,True,2,1.1372202989878133,new,1,264.98821686400333
2,11,42.0,recog,safetypin,old,3.0,-135.0,2.0,-1.4142135623730954,-1.414213562373095,272.0,2.0,4.0,True,2,1.1823526209918782,new,0,271.98816290398827
2,11,43.0,recog,mug01,new,,,2.0,,,278.0,2.0,5.0,True,2,1.3983598140184768,new,1,277.9880242020008
2,11,44.0,recog,airhockeytable,new,,,2.0,,,285.0,2.0,6.0,True,2,0.9117264570086263,new,1,284.98645323497476
2,11,45.0,recog,greywolf,old,3.0,-135.0,2.0,-1.4142135623730954,-1.414213562373095,293.0,2.0,6.0,True,1,0.8368939720094204,old,1,292.98659550299635
2,11,46.0,recog,rubikcube,new,,,2.0,,,301.0,2.0,4.0,True,2,0.7932302220142446,new,1,300.9863629040192
2,11,47.0,recog,stuffedpuffin,old,1.0,45.0,2.0,1.4142135623730951,1.414213562373095,307.0,2.0,6.0,True,1,0.9364130679750815,old,1,306.9864113049698
2,11,48.0,recog,peanut01,new,,,2.0,,,315.0,2.0,4.0,True,2,0.7914923870121129,new,1,314.9854874369921
