session,block,trial,block_type,stim_id,stim_cond,stim_cond_source,stim_ang,stim_eccen,stim_xpos,stim_ypos,stim_onset,stim_dur,isi,made_resp,key,rt,resp,acc,stim_timestamp
2,2,1.0,recog,coathook,new,,,2.0,,,0.0,2.0,5.0,True,2,1.1970014620019356,new,1.0,0.001982597997994162
2,2,2.0,recog,leek,old,1.0,45.0,2.0,1.4142135623730951,1.414213562373095,7.0,2.0,4.0,True,1,0.95937843300635,old,1.0,6.986333262000699
2,2,3.0,recog,shelves,new,,,2.0,,,13.0,2.0,4.0,True,2,1.6167104079941055,new,1.0,12.986407984994003
2,2,4.0,recog,tortillachip,new,,,2.0,,,19.0,2.0,6.0,True,2,0.8686142080114223,new,1.0,18.986346310994122
2,2,5.0,recog,saintbernard,old,4.0,-45.0,2.0,-1.414213562373095,1.4142135623730951,27.0,2.0,4.0,True,1,1.0002136359980796,old,1.0,26.9863801169995
2,2,6.0,recog,grandpiano,new,,,2.0,,,33.0,2.0,4.0,True,2,1.5886750749923522,new,1.0,32.986463964989525
2,2,7.0,recog,medal02b,new,,,2.0,,,39.0,2.0,5.0,True,2,1.8005869169865036,new,1.0,38.98640550200071
2,2,8.0,recog,squeegee01b,new,,,2.0,,,46.0,2.0,5.0,True,2,1.6043832150025992,new,1.0,45.986089422993246
2,2,9.0,recog,wagonwheel,old,1.0,45.0,2.0,1.4142135623730951,1.414213562373095,53.0,2.0,5.0,True,1,1.0016176240023924,old,1.0,52.98692393300007
2,2,10.0,recog,lime,new,,,2.0,,,60.0,2.0,5.0,True,2,0.9679407860094216,new,1.0,59.98711217599339
2,2,11.0,recog,golfball,old,4.0,-45.0,2.0,-1.414213562373095,1.4142135623730951,67.0,2.0,4.0,True,1,1.1291698370041559,old,1.0,66.98697207099758
2,2,12.0,recog,blender,new,,,2.0,,,73.0,2.0,4.0,True,2,1.9547995760076446,new,1.0,72.9871600609913
2,2,13.0,recog,television,old,3.0,-135.0,2.0,-1.4142135623730954,-1.414213562373095,79.0,2.0,4.0,True,1,1.737705449006171,old,1.0,78.98695255699567
2,2,14.0,recog,dolphin01,old,2.0,135.0,2.0,1.4142135623730951,-1.414213562373095,85.0,2.0,4.0,True,1,0.9952552890026709,old,1.0,84.98701137700118
2,2,15.0,recog,eagle,old,4.0,-45.0,2.0,-1.414213562373095,1.4142135623730951,91.0,2.0,4.0,True,1,1.5934676959877834,old,1.0,90.98702948099526
2,2,16.0,recog,bicycle,old,2.0,135.0,2.0,1.4142135623730951,-1.414213562373095,97.0,2.0,6.0,True,1,2.019589963994804,old,1.0,96.98704325300059
2,2,17.0,recog,macaque,new,,,2.0,,,105.0,2.0,4.0,True,2,1.3884669039980508,new,1.0,104.98724967498856
2,2,18.0,recog,tape02a,old,2.0,135.0,2.0,1.4142135623730951,-1.414213562373095,111.0,2.0,7.0,True,1,1.569080514003872,old,1.0,110.9871050590009
2,2,19.0,recog,christmastree,new,,,2.0,,,120.0,2.0,4.0,True,2,1.6217966249969322,new,1.0,119.98693459799688
2,2,20.0,recog,propanetank01,new,,,2.0,,,126.0,2.0,6.0,True,2,1.7946363600058248,new,1.0,125.98696154898789
2,2,21.0,recog,dryingmachine02,new,,,2.0,,,134.0,2.0,4.0,True,1,2.5069533189962385,old,0.0,133.98706243099878
2,2,22.0,recog,christmasball,old,3.0,-135.0,2.0,-1.4142135623730954,-1.414213562373095,140.0,2.0,4.0,True,1,2.500952836999204,old,1.0,139.987156408999
2,2,23.0,recog,screw02,old,4.0,-45.0,2.0,-1.414213562373095,1.4142135623730951,146.0,2.0,5.0,True,1,1.0538749289989937,old,1.0,145.9871286409907
2,2,24.0,recog,wineglass01,old,2.0,135.0,2.0,1.4142135623730951,-1.414213562373095,153.0,2.0,5.0,True,1,1.3258472910092678,old,1.0,152.98702330399828
2,2,25.0,recog,beachumbrella01,old,3.0,-135.0,2.0,-1.4142135623730954,-1.414213562373095,160.0,2.0,4.0,True,1,1.5080032990081236,old,1.0,159.98694588399667
2,2,26.0,recog,poloshirt,new,,,2.0,,,166.0,2.0,4.0,True,2,1.579820215003565,new,1.0,165.98801976599498
2,2,27.0,recog,castle,new,,,2.0,,,172.0,2.0,4.0,True,2,1.0543285379972076,new,1.0,171.98788892599987
2,2,28.0,recog,scooter,new,,,2.0,,,178.0,2.0,6.0,True,2,1.1270284420024836,new,1.0,177.98830576399632
2,2,29.0,recog,hairband,old,2.0,135.0,2.0,1.4142135623730951,-1.414213562373095,186.0,2.0,6.0,True,1,1.430316853991826,old,1.0,185.9879967309971
2,2,30.0,recog,stapleremover,new,,,2.0,,,194.0,2.0,4.0,True,2,1.0764867669931846,new,1.0,193.98688177899749
2,2,31.0,recog,pig,new,,,2.0,,,200.0,2.0,4.0,True,2,1.841957947006449,new,1.0,199.98794606998854
2,2,32.0,recog,handbrush02,new,,,2.0,,,206.0,2.0,5.0,False,,,,,205.98798633700062
2,2,33.0,recog,paddleball,old,2.0,135.0,2.0,1.4142135623730951,-1.414213562373095,213.0,2.0,5.0,True,1,1.3119919220043812,old,1.0,212.98778849899827
2,2,34.0,recog,gluetube,new,,,2.0,,,220.0,2.0,4.0,True,2,2.06875525599753,new,1.0,219.98795896099182
2,2,35.0,recog,walkman,new,,,2.0,,,226.0,2.0,4.0,True,2,1.895456122001633,new,1.0,225.98791564999556
2,2,36.0,recog,kalashnikov,old,4.0,-45.0,2.0,-1.414213562373095,1.4142135623730951,232.0,2.0,6.0,True,1,1.3321343720017467,old,1.0,231.98832226499508
2,2,37.0,recog,toytank,old,4.0,-45.0,2.0,-1.414213562373095,1.4142135623730951,240.0,2.0,4.0,True,1,1.3079283050028607,old,1.0,239.9879905389971
2,2,38.0,recog,knee,old,1.0,45.0,2.0,1.4142135623730951,1.414213562373095,246.0,2.0,5.0,True,1,1.1953193210065365,old,1.0,245.98777603099006
2,2,39.0,recog,stuffedpuffin,old,3.0,-135.0,2.0,-1.4142135623730954,-1.414213562373095,253.0,2.0,4.0,True,1,1.412613007996697,old,1.0,252.9880424039875
2,2,40.0,recog,toucan,old,2.0,135.0,2.0,1.4142135623730951,-1.414213562373095,259.0,2.0,5.0,True,1,1.0762600210000528,old,1.0,258.9880795520003
2,2,41.0,recog,petcarrier,old,2.0,135.0,2.0,1.4142135623730951,-1.414213562373095,266.0,2.0,4.0,True,1,1.352651302004233,old,1.0,265.9879850259895
2,2,42.0,recog,speedball,new,,,2.0,,,272.0,2.0,4.0,True,2,1.4526623420097167,new,1.0,271.9877307309944
2,2,43.0,recog,grater01a,new,,,2.0,,,278.0,2.0,4.0,True,2,1.9730968560033944,new,1.0,277.9878869719978
2,2,44.0,recog,gavel,old,3.0,-135.0,2.0,-1.4142135623730954,-1.414213562373095,284.0,2.0,7.0,True,1,1.0087015540048014,old,1.0,283.9863849669928
2,2,45.0,recog,interlockingbuildingblock03b,old,1.0,45.0,2.0,1.4142135623730951,1.414213562373095,293.0,2.0,4.0,True,1,1.2204372069973033,old,1.0,292.98635752098926
2,2,46.0,recog,printer02,new,,,2.0,,,299.0,2.0,7.0,True,2,2.22354232800717,new,1.0,298.9863083419914
2,2,47.0,recog,congadrum,old,2.0,135.0,2.0,1.4142135623730951,-1.414213562373095,308.0,2.0,4.0,True,1,1.5822759830043651,old,1.0,307.9863963539974
2,2,48.0,recog,pepper04a,new,,,2.0,,,314.0,2.0,5.0,True,2,2.4727831780037377,new,1.0,313.9863462039939
