session,block,trial,block_type,stim_id,stim_cond,stim_cond_source,stim_ang,stim_eccen,stim_xpos,stim_ypos,stim_onset,stim_dur,isi,made_resp,key,rt,resp,acc,stim_timestamp
1,11,1.0,recog,postitnote,new,,,2.0,,,0.0,2.0,6.0,True,2,1.4736246579996077,new,1,0.002601796000817558
1,11,2.0,recog,lamp04a,new,,,2.0,,,8.0,2.0,5.0,True,2,1.6500253639969742,new,1,8.00222489799853
1,11,3.0,recog,granolabar01,new,,,2.0,,,15.0,2.0,6.0,True,2,1.394755166998948,new,1,14.98690222499863
1,11,4.0,recog,frenchfries,old,4.0,-45.0,2.0,-1.414213562373095,1.4142135623730951,23.0,2.0,6.0,True,1,1.1414969899997232,old,1,22.985796828001185
1,11,5.0,recog,noparkingsign,old,3.0,-135.0,2.0,-1.4142135623730954,-1.414213562373095,31.0,2.0,5.0,True,1,1.6862939099992218,old,1,30.986296234001202
1,11,6.0,recog,papertowel,old,2.0,135.0,2.0,1.4142135623730951,-1.414213562373095,38.0,2.0,4.0,True,1,1.8084967229988251,old,1,37.985407126998325
1,11,7.0,recog,garbagebin,new,,,2.0,,,44.0,2.0,7.0,True,2,0.8146303499997885,new,1,43.98634858399964
1,11,8.0,recog,barrel01,new,,,2.0,,,53.0,2.0,4.0,True,2,2.9597630110001774,new,1,52.98690656100007
1,11,9.0,recog,book01b,new,,,2.0,,,59.0,2.0,5.0,True,2,1.6647044750025088,new,1,58.986410626999714
1,11,10.0,recog,americangoldfinch,old,2.0,135.0,2.0,1.4142135623730951,-1.414213562373095,66.0,2.0,4.0,True,1,0.8996676720016694,old,1,65.98647402300048
1,11,11.0,recog,flyswatter,old,4.0,-45.0,2.0,-1.414213562373095,1.4142135623730951,72.0,2.0,4.0,True,1,1.6373954959999537,old,1,71.98636702300064
1,11,12.0,recog,qtip,old,4.0,-45.0,2.0,-1.414213562373095,1.4142135623730951,78.0,2.0,4.0,True,1,1.5476529260013194,old,1,77.98636809399977
1,11,13.0,recog,megaphone,old,1.0,45.0,2.0,1.4142135623730951,1.414213562373095,84.0,2.0,5.0,True,1,1.4552596280009311,old,1,83.9863533409989
1,11,14.0,recog,cedarwaxwing,new,,,2.0,,,91.0,2.0,4.0,True,2,1.1259027529995365,new,1,90.987109392001
1,11,15.0,recog,dresser02,old,3.0,-135.0,2.0,-1.4142135623730954,-1.414213562373095,97.0,2.0,4.0,True,1,2.0891259070012893,old,1,96.98699993199989
1,11,16.0,recog,cutleryset,new,,,2.0,,,103.0,2.0,6.0,True,2,1.927985272002843,new,1,102.98685727200063
1,11,17.0,recog,filmroll,old,2.0,135.0,2.0,1.4142135623730951,-1.414213562373095,111.0,2.0,4.0,True,1,1.66510665199894,old,1,110.98690061000161
1,11,18.0,recog,trafficlight,old,1.0,45.0,2.0,1.4142135623730951,1.414213562373095,117.0,2.0,5.0,True,1,1.1930173200016725,old,1,116.98703150299843
1,11,19.0,recog,tire,new,,,2.0,,,124.0,2.0,7.0,True,2,1.3953521000003093,new,1,123.98703263800053
1,11,20.0,recog,recyclingbin,old,4.0,-45.0,2.0,-1.414213562373095,1.4142135623730951,133.0,2.0,4.0,True,1,2.5112928799971996,old,1,132.98708151399842
1,11,21.0,recog,pintofbeer,old,2.0,135.0,2.0,1.4142135623730951,-1.414213562373095,139.0,2.0,4.0,True,1,1.2850794730002235,old,1,138.9869695439993
1,11,22.0,recog,floorlamp,new,,,2.0,,,145.0,2.0,4.0,True,1,1.5680994210015342,old,0,144.98692401399967
1,11,23.0,recog,kiwi03,new,,,2.0,,,151.0,2.0,5.0,True,2,1.3673111850002897,new,1,150.98625766199984
1,11,24.0,recog,champagne,new,,,2.0,,,158.0,2.0,5.0,True,1,1.8704039020012715,old,0,157.98704699399968
1,11,25.0,recog,makeupbrush04,old,4.0,-45.0,2.0,-1.414213562373095,1.4142135623730951,165.0,2.0,4.0,True,2,1.3191335470000922,new,0,164.98700916099915
1,11,26.0,recog,chandelier,old,4.0,-45.0,2.0,-1.414213562373095,1.4142135623730951,171.0,2.0,4.0,True,1,1.417155207000178,old,1,170.9868371099983
1,11,27.0,recog,fan,new,,,2.0,,,177.0,2.0,4.0,True,2,1.5324539210014336,new,1,176.98694488299952
1,11,28.0,recog,spraybottle01,old,4.0,-45.0,2.0,-1.414213562373095,1.4142135623730951,183.0,2.0,4.0,True,1,1.2821522790000017,old,1,182.98695272400073
1,11,29.0,recog,bikerack,new,,,2.0,,,189.0,2.0,4.0,True,2,1.4344476099977328,new,1,188.98701665299814
1,11,30.0,recog,tractor,old,1.0,45.0,2.0,1.4142135623730951,1.414213562373095,195.0,2.0,4.0,True,2,3.2456293159993947,new,0,194.98692622399903
1,11,31.0,recog,watercolorpaintset,old,1.0,45.0,2.0,1.4142135623730951,1.414213562373095,201.0,2.0,4.0,True,1,1.0140534809979727,old,1,200.98623190999933
1,11,32.0,recog,peacock,new,,,2.0,,,207.0,2.0,5.0,True,2,1.8051856740021321,new,1,206.98799281600077
1,11,33.0,recog,tricycle,old,3.0,-135.0,2.0,-1.4142135623730954,-1.414213562373095,214.0,2.0,6.0,True,1,1.3539126770010625,old,1,213.9882157159991
1,11,34.0,recog,chameleon,new,,,2.0,,,222.0,2.0,5.0,True,2,2.3621365389990387,new,1,221.98793514000135
1,11,35.0,recog,baseball01a,new,,,2.0,,,229.0,2.0,4.0,True,1,1.9299458440000308,old,0,228.98811730300076
1,11,36.0,recog,duck01,new,,,2.0,,,235.0,2.0,6.0,True,2,1.2966756409987283,new,1,234.98795269100083
1,11,37.0,recog,spatula03,old,3.0,-135.0,2.0,-1.4142135623730954,-1.414213562373095,243.0,2.0,4.0,True,2,1.7051940929995908,new,0,242.98793147900142
1,11,38.0,recog,cucumber,old,3.0,-135.0,2.0,-1.4142135623730954,-1.414213562373095,249.0,2.0,4.0,True,1,2.452804546999687,old,1,248.9878884360005
1,11,39.0,recog,lintroller,new,,,2.0,,,255.0,2.0,7.0,True,2,1.9150114589974692,new,1,254.9875864889982
1,11,40.0,recog,nosmokingsign,new,,,2.0,,,264.0,2.0,5.0,True,2,1.5559567070013145,new,1,263.98797042599836
1,11,41.0,recog,horse,old,2.0,135.0,2.0,1.4142135623730951,-1.414213562373095,271.0,2.0,5.0,True,2,1.9163452579996374,new,0,270.9878122109985
1,11,42.0,recog,oneholepunch,old,3.0,-135.0,2.0,-1.4142135623730954,-1.414213562373095,278.0,2.0,4.0,True,1,1.8571497009979794,old,1,277.98794798900053
1,11,43.0,recog,rockbass,new,,,2.0,,,284.0,2.0,4.0,True,2,1.4914561069999763,new,1,283.98682809399907
1,11,44.0,recog,hubcap,new,,,2.0,,,290.0,2.0,5.0,True,2,1.6341091799986316,new,1,289.9878548730012
1,11,45.0,recog,greenolive,old,2.0,135.0,2.0,1.4142135623730951,-1.414213562373095,297.0,2.0,4.0,True,1,1.124856099999306,old,1,296.987830443999
1,11,46.0,recog,snowglobe,new,,,2.0,,,303.0,2.0,4.0,True,2,1.6247834360001434,new,1,302.9884194289989
1,11,47.0,recog,sprinkler,old,3.0,-135.0,2.0,-1.4142135623730954,-1.414213562373095,309.0,2.0,4.0,True,1,1.3330188510008156,old,1,308.9880660550007
1,11,48.0,recog,icecubetray01a,new,,,2.0,,,315.0,2.0,4.0,True,2,1.7297904639999615,new,1,314.9862016879997
